participant_id,block_num,block_type,deviant_type,trial_num,stimulus_state,trigger_code,response,rt,correct
9876,1,Training_Static,AV,1,standard,1,False,2,True
9876,1,Training_Static,AV,2,standard,1,False,2,True
9876,1,Training_Static,AV,3,standard,1,False,2,True
9876,1,Training_Static,AV,4,deviant,2,True,0.6635,True
9876,1,Training_Static,AV,5,standard,1,False,2,True
9876,1,Training_Static,AV,6,deviant,2,True,0.4789,True
9876,1,Training_Static,AV,7,standard,1,False,2,True
9876,1,Training_Static,AV,8,standard,1,False,2,True
9876,1,Training_Static,AV,9,standard,1,False,2,True
9876,1,Training_Static,AV,10,standard,1,False,2,True
9876,1,Training_Static,AV,11,standard,1,False,2,True
9876,1,Training_Static,AV,12,standard,1,False,2,True
9876,1,Training_Static,AV,13,standard,1,False,2,True
9876,1,Training_Static,AV,14,deviant,2,True,0.4837,True
9876,1,Training_Static,AV,15,standard,1,False,2,True
9876,2,Training_Dynamic,AV,1,standard,1,False,2,True
9876,2,Training_Dynamic,AV,2,standard,1,False,2,True
9876,2,Training_Dynamic,AV,3,standard,1,False,2,True
9876,2,Training_Dynamic,AV,4,standard,1,False,2,True
9876,2,Training_Dynamic,AV,5,standard,1,False,2,True
9876,2,Training_Dynamic,AV,6,deviant,2,True,0.301,True
9876,2,Training_Dynamic,AV,7,standard,1,False,2,True
9876,2,Training_Dynamic,AV,8,standard,1,False,2,True
9876,2,Training_Dynamic,AV,9,standard,1,False,2,True
9876,2,Training_Dynamic,AV,10,standard,1,False,2,True
9876,2,Training_Dynamic,AV,11,standard,1,False,2,True
9876,2,Training_Dynamic,AV,12,deviant,2,True,0.3363,True
9876,2,Training_Dynamic,AV,13,standard,1,False,2,True
9876,2,Training_Dynamic,AV,14,standard,1,False,2,True
9876,2,Training_Dynamic,AV,15,standard,1,False,2,True
9876,3,Training_Static,SV,1,standard,1,False,2,True
9876,3,Training_Static,SV,2,standard,1,False,2,True
9876,3,Training_Static,SV,3,standard,1,False,2,True
9876,3,Training_Static,SV,4,standard,1,False,2,True
9876,3,Training_Static,SV,5,standard,1,False,2,True
9876,3,Training_Static,SV,6,standard,1,False,2,True
9876,3,Training_Static,SV,7,standard,1,False,2,True
9876,3,Training_Static,SV,8,standard,1,False,2,True
9876,3,Training_Static,SV,9,standard,1,False,2,True
9876,3,Training_Static,SV,10,standard,1,False,2,True
9876,3,Training_Static,SV,11,deviant,3,True,0.3286,True
9876,3,Training_Static,SV,12,standard,1,False,2,True
9876,3,Training_Static,SV,13,standard,1,False,2,True
9876,3,Training_Static,SV,14,standard,1,False,2,True
9876,3,Training_Static,SV,15,standard,1,False,2,True
9876,4,Training_Dynamic,SV,1,standard,1,False,2,True
9876,4,Training_Dynamic,SV,2,standard,1,False,2,True
9876,4,Training_Dynamic,SV,3,standard,1,False,2,True
9876,4,Training_Dynamic,SV,4,standard,1,False,2,True
9876,4,Training_Dynamic,SV,5,standard,1,False,2,True
9876,4,Training_Dynamic,SV,6,deviant,3,True,0.2876,True
9876,4,Training_Dynamic,SV,7,standard,1,False,2,True
9876,4,Training_Dynamic,SV,8,standard,1,False,2,True
9876,4,Training_Dynamic,SV,9,standard,1,False,2,True
9876,4,Training_Dynamic,SV,10,deviant,3,True,0.2939,True
9876,4,Training_Dynamic,SV,11,standard,1,False,2,True
9876,4,Training_Dynamic,SV,12,standard,1,False,2,True
9876,4,Training_Dynamic,SV,13,standard,1,False,2,True
9876,4,Training_Dynamic,SV,14,standard,1,False,2,True
9876,4,Training_Dynamic,SV,15,standard,1,False,2,True
9876,5,Training_Static,AS,1,standard,1,False,2,True
9876,5,Training_Static,AS,2,deviant,4,True,0.4144,True
9876,5,Training_Static,AS,3,deviant,4,True,0.3881,True
9876,5,Training_Static,AS,4,standard,1,False,2,True
9876,5,Training_Static,AS,5,standard,1,False,2,True
9876,5,Training_Static,AS,6,standard,1,False,2,True
9876,5,Training_Static,AS,7,standard,1,False,2,True
9876,5,Training_Static,AS,8,standard,1,False,2,True
9876,5,Training_Static,AS,9,standard,1,False,2,True
9876,5,Training_Static,AS,10,standard,1,False,2,True
9876,5,Training_Static,AS,11,standard,1,False,2,True
9876,5,Training_Static,AS,12,standard,1,False,2,True
9876,5,Training_Static,AS,13,standard,1,False,2,True
9876,5,Training_Static,AS,14,standard,1,False,2,True
9876,5,Training_Static,AS,15,deviant,4,True,0.3549,True
9876,6,Training_Dynamic,AS,1,standard,1,False,2,True
9876,6,Training_Dynamic,AS,2,standard,1,False,2,True
9876,6,Training_Dynamic,AS,3,standard,1,False,2,True
9876,6,Training_Dynamic,AS,4,deviant,4,True,0.3522,True
9876,6,Training_Dynamic,AS,5,standard,1,False,2,True
9876,6,Training_Dynamic,AS,6,standard,1,False,2,True
9876,6,Training_Dynamic,AS,7,standard,1,False,2,True
9876,6,Training_Dynamic,AS,8,standard,1,False,2,True
9876,6,Training_Dynamic,AS,9,standard,1,False,2,True
9876,6,Training_Dynamic,AS,10,standard,1,False,2,True
9876,6,Training_Dynamic,AS,11,deviant,4,True,0.3667,True
9876,6,Training_Dynamic,AS,12,standard,1,False,2,True
9876,6,Training_Dynamic,AS,13,standard,1,False,2,True
9876,6,Training_Dynamic,AS,14,standard,1,False,2,True
9876,6,Training_Dynamic,AS,15,standard,1,False,2,True
9876,7,Static,AV,1,standard,1,False,2,True
9876,7,Static,AV,2,standard,1,False,2,True
9876,7,Static,AV,3,standard,1,False,2,True
9876,7,Static,AV,4,deviant,2,True,0.3216,True
9876,7,Static,AV,5,standard,1,False,2,True
9876,7,Static,AV,6,standard,1,False,2,True
9876,7,Static,AV,7,standard,1,False,2,True
9876,7,Static,AV,8,standard,1,False,2,True
9876,7,Static,AV,9,standard,1,False,2,True
9876,7,Static,AV,10,deviant,2,True,0.3123,True
9876,7,Static,AV,11,standard,1,False,2,True
9876,7,Static,AV,12,standard,1,False,2,True
9876,7,Static,AV,13,standard,1,False,2,True
9876,7,Static,AV,14,standard,1,False,2,True
9876,7,Static,AV,15,standard,1,False,2,True
9876,7,Static,AV,16,standard,1,False,2,True
9876,7,Static,AV,17,standard,1,False,2,True
9876,7,Static,AV,18,standard,1,False,2,True
9876,7,Static,AV,19,standard,1,False,2,True
9876,7,Static,AV,20,deviant,2,True,0.3858,True
9876,8,Static,AV,1,standard,1,False,2,True
9876,8,Static,AV,2,standard,1,False,2,True
9876,8,Static,AV,3,standard,1,False,2,True
9876,8,Static,AV,4,standard,1,False,2,True
9876,8,Static,AV,5,deviant,2,True,0.3642,True
9876,8,Static,AV,6,standard,1,False,2,True
9876,8,Static,AV,7,standard,1,False,2,True
9876,8,Static,AV,8,standard,1,False,2,True
9876,8,Static,AV,9,standard,1,False,2,True
9876,8,Static,AV,10,standard,1,False,2,True
9876,8,Static,AV,11,standard,1,False,2,True
9876,8,Static,AV,12,deviant,2,True,0.3042,True
9876,8,Static,AV,13,standard,1,False,2,True
9876,8,Static,AV,14,standard,1,False,2,True
9876,8,Static,AV,15,standard,1,False,2,True
9876,8,Static,AV,16,standard,1,False,2,True
9876,8,Static,AV,17,deviant,2,True,0.2932,True
9876,8,Static,AV,18,standard,1,False,2,True
9876,8,Static,AV,19,standard,1,False,2,True
9876,8,Static,AV,20,standard,1,False,2,True
9876,8,Static,AV,21,standard,1,False,2,True
9876,8,Static,AV,22,standard,1,False,2,True
9876,8,Static,AV,23,deviant,2,True,0.3552,True
9876,8,Static,AV,24,standard,1,False,2,True
9876,8,Static,AV,25,standard,1,False,2,True
9876,8,Static,AV,26,standard,1,False,2,True
9876,8,Static,AV,27,standard,1,False,2,True
9876,8,Static,AV,28,standard,1,False,2,True
9876,8,Static,AV,29,standard,1,False,2,True
9876,8,Static,AV,30,standard,1,False,2,True
9876,8,Static,AV,31,standard,1,False,2,True
9876,8,Static,AV,32,deviant,2,True,0.2949,True
9876,8,Static,AV,33,standard,1,False,2,True
9876,8,Static,AV,34,standard,1,False,2,True
9876,8,Static,AV,35,standard,1,False,2,True
9876,8,Static,AV,36,standard,1,False,2,True
9876,8,Static,AV,37,standard,1,False,2,True
9876,8,Static,AV,38,standard,1,False,2,True
9876,8,Static,AV,39,standard,1,False,2,True
9876,8,Static,AV,40,deviant,2,True,0.2722,True
9876,8,Static,AV,41,standard,1,False,2,True
9876,8,Static,AV,42,standard,1,False,2,True
9876,8,Static,AV,43,deviant,2,True,0.4019,True
9876,8,Static,AV,44,standard,1,False,2,True
9876,8,Static,AV,45,standard,1,False,2,True
9876,8,Static,AV,46,standard,1,False,2,True
9876,8,Static,AV,47,standard,1,False,2,True
9876,8,Static,AV,48,standard,1,False,2,True
9876,8,Static,AV,49,deviant,2,True,0.3567,True
9876,8,Static,AV,50,standard,1,False,2,True
9876,8,Static,AV,51,standard,1,False,2,True
9876,8,Static,AV,52,standard,1,False,2,True
9876,8,Static,AV,53,standard,1,False,2,True
9876,8,Static,AV,54,deviant,2,True,0.3223,True
9876,8,Static,AV,55,standard,1,False,2,True
9876,8,Static,AV,56,standard,1,False,2,True
9876,8,Static,AV,57,standard,1,False,2,True
9876,8,Static,AV,58,standard,1,False,2,True
9876,8,Static,AV,59,deviant,2,True,0.3354,True
9876,8,Static,AV,60,standard,1,False,2,True
9876,9,Static,AV,1,standard,1,False,2,True
9876,9,Static,AV,2,standard,1,False,2,True
9876,9,Static,AV,3,deviant,2,True,0.3729,True
9876,9,Static,AV,4,standard,1,False,2,True
9876,9,Static,AV,5,standard,1,False,2,True
9876,9,Static,AV,6,standard,1,False,2,True
9876,9,Static,AV,7,standard,1,False,2,True
9876,9,Static,AV,8,standard,1,False,2,True
9876,9,Static,AV,9,standard,1,False,2,True
9876,9,Static,AV,10,standard,1,False,2,True
9876,9,Static,AV,11,standard,1,False,2,True
9876,9,Static,AV,12,standard,1,False,2,True
9876,9,Static,AV,13,standard,1,False,2,True
9876,9,Static,AV,14,standard,1,False,2,True
9876,9,Static,AV,15,standard,1,False,2,True
9876,9,Static,AV,16,deviant,2,True,0.324,True
9876,9,Static,AV,17,standard,1,False,2,True
9876,9,Static,AV,18,standard,1,False,2,True
9876,9,Static,AV,19,deviant,2,True,0.3439,True
9876,9,Static,AV,20,standard,1,False,2,True
9876,9,Static,AV,21,standard,1,False,2,True
9876,9,Static,AV,22,standard,1,False,2,True
9876,9,Static,AV,23,standard,1,False,2,True
9876,9,Static,AV,24,deviant,2,True,0.3577,True
9876,9,Static,AV,25,standard,1,False,2,True
9876,9,Static,AV,26,standard,1,False,2,True
9876,9,Static,AV,27,standard,1,False,2,True
9876,9,Static,AV,28,standard,1,False,2,True
9876,9,Static,AV,29,deviant,2,True,0.3235,True
9876,9,Static,AV,30,standard,1,False,2,True
9876,9,Static,AV,31,standard,1,False,2,True
9876,9,Static,AV,32,standard,1,False,2,True
9876,9,Static,AV,33,standard,1,False,2,True
9876,9,Static,AV,34,deviant,2,True,0.4148,True
9876,9,Static,AV,35,standard,1,False,2,True
9876,9,Static,AV,36,deviant,2,True,0.4021,True
9876,9,Static,AV,37,deviant,2,True,0.4118,True
9876,9,Static,AV,38,standard,1,False,2,True
9876,9,Static,AV,39,standard,1,False,2,True
9876,9,Static,AV,40,deviant,2,True,0.3805,True
9876,9,Static,AV,41,standard,1,False,2,True
9876,9,Static,AV,42,standard,1,False,2,True
9876,9,Static,AV,43,standard,1,False,2,True
9876,9,Static,AV,44,standard,1,False,2,True
9876,9,Static,AV,45,standard,1,False,2,True
9876,9,Static,AV,46,standard,1,False,2,True
9876,9,Static,AV,47,standard,1,False,2,True
9876,9,Static,AV,48,deviant,2,True,0.3736,True
9876,9,Static,AV,49,standard,1,False,2,True
9876,9,Static,AV,50,standard,1,False,2,True
9876,9,Static,AV,51,standard,1,False,2,True
9876,9,Static,AV,52,standard,1,False,2,True
9876,9,Static,AV,53,standard,1,False,2,True
9876,9,Static,AV,54,standard,1,False,2,True
9876,9,Static,AV,55,deviant,2,True,0.4404,True
9876,9,Static,AV,56,deviant,2,True,0.2887,True
9876,9,Static,AV,57,standard,1,False,2,True
9876,9,Static,AV,58,deviant,2,True,0.3688,True
9876,9,Static,AV,59,standard,1,False,2,True
9876,9,Static,AV,60,standard,1,False,2,True
9876,10,Static,AV,1,standard,1,False,2,True
9876,10,Static,AV,2,standard,1,False,2,True
9876,10,Static,AV,3,standard,1,False,2,True
9876,10,Static,AV,4,standard,1,False,2,True
9876,10,Static,AV,5,standard,1,False,2,True
9876,10,Static,AV,6,standard,1,False,2,True
9876,10,Static,AV,7,standard,1,False,2,True
9876,10,Static,AV,8,standard,1,False,2,True
9876,10,Static,AV,9,standard,1,False,2,True
9876,10,Static,AV,10,standard,1,False,2,True
9876,10,Static,AV,11,standard,1,False,2,True
9876,10,Static,AV,12,standard,1,False,2,True
9876,10,Static,AV,13,deviant,2,True,0.352,True
9876,10,Static,AV,14,standard,1,False,2,True
9876,10,Static,AV,15,standard,1,False,2,True
9876,10,Static,AV,16,standard,1,False,2,True
9876,10,Static,AV,17,standard,1,False,2,True
9876,10,Static,AV,18,deviant,2,True,0.3462,True
9876,10,Static,AV,19,standard,1,False,2,True
9876,10,Static,AV,20,standard,1,False,2,True
9876,10,Static,AV,21,standard,1,False,2,True
9876,10,Static,AV,22,standard,1,False,2,True
9876,10,Static,AV,23,standard,1,False,2,True
9876,10,Static,AV,24,standard,1,False,2,True
9876,10,Static,AV,25,standard,1,False,2,True
9876,10,Static,AV,26,standard,1,False,2,True
9876,10,Static,AV,27,deviant,2,True,0.3794,True
9876,10,Static,AV,28,standard,1,False,2,True
9876,10,Static,AV,29,deviant,2,True,0.4107,True
9876,10,Static,AV,30,standard,1,False,2,True
9876,10,Static,AV,31,standard,1,False,2,True
9876,10,Static,AV,32,standard,1,False,2,True
9876,10,Static,AV,33,standard,1,False,2,True
9876,10,Static,AV,34,standard,1,False,2,True
9876,10,Static,AV,35,standard,1,False,2,True
9876,10,Static,AV,36,standard,1,False,2,True
9876,10,Static,AV,37,standard,1,False,2,True
9876,10,Static,AV,38,standard,1,False,2,True
9876,10,Static,AV,39,standard,1,False,2,True
9876,10,Static,AV,40,standard,1,False,2,True
9876,10,Static,AV,41,standard,1,False,2,True
9876,10,Static,AV,42,deviant,2,True,0.3383,True
9876,10,Static,AV,43,standard,1,False,2,True
9876,10,Static,AV,44,standard,1,False,2,True
9876,10,Static,AV,45,standard,1,False,2,True
9876,10,Static,AV,46,deviant,2,True,0.371,True
9876,10,Static,AV,47,standard,1,False,2,True
9876,10,Static,AV,48,standard,1,False,2,True
9876,10,Static,AV,49,standard,1,False,2,True
9876,10,Static,AV,50,standard,1,False,2,True
9876,10,Static,AV,51,standard,1,False,2,True
9876,10,Static,AV,52,standard,1,False,2,True
9876,10,Static,AV,53,standard,1,False,2,True
9876,10,Static,AV,54,deviant,2,True,0.3855,True
9876,10,Static,AV,55,deviant,2,True,0.3941,True
9876,10,Static,AV,56,standard,1,False,2,True
9876,10,Static,AV,57,deviant,2,True,0.2581,True
9876,10,Static,AV,58,deviant,2,True,0.4947,True
9876,10,Static,AV,59,standard,1,False,2,True
9876,10,Static,AV,60,standard,1,False,2,True
9876,11,Dynamic,AV,1,standard,1,False,2,True
9876,11,Dynamic,AV,2,standard,1,False,2,True
9876,11,Dynamic,AV,3,standard,1,False,2,True
9876,11,Dynamic,AV,4,standard,1,False,2,True
9876,11,Dynamic,AV,5,standard,1,False,2,True
9876,11,Dynamic,AV,6,standard,1,False,2,True
9876,11,Dynamic,AV,7,deviant,2,True,0.3488,True
9876,11,Dynamic,AV,8,standard,1,False,2,True
9876,11,Dynamic,AV,9,standard,1,False,2,True
9876,11,Dynamic,AV,10,standard,1,False,2,True
9876,11,Dynamic,AV,11,standard,1,False,2,True
9876,11,Dynamic,AV,12,deviant,2,True,0.3825,True
9876,11,Dynamic,AV,13,standard,1,False,2,True
9876,11,Dynamic,AV,14,standard,1,False,2,True
9876,11,Dynamic,AV,15,standard,1,False,2,True
9876,11,Dynamic,AV,16,standard,1,False,2,True
9876,11,Dynamic,AV,17,standard,1,False,2,True
9876,11,Dynamic,AV,18,standard,1,False,2,True
9876,11,Dynamic,AV,19,deviant,2,True,0.3438,True
9876,11,Dynamic,AV,20,standard,1,False,2,True
9876,12,Dynamic,AV,1,standard,1,False,2,True
9876,12,Dynamic,AV,2,standard,1,False,2,True
9876,12,Dynamic,AV,3,standard,1,False,2,True
9876,12,Dynamic,AV,4,standard,1,False,2,True
9876,12,Dynamic,AV,5,standard,1,False,2,True
9876,12,Dynamic,AV,6,deviant,2,True,0.3154,True
9876,12,Dynamic,AV,7,standard,1,False,2,True
9876,12,Dynamic,AV,8,standard,1,False,2,True
9876,12,Dynamic,AV,9,standard,1,False,2,True
9876,12,Dynamic,AV,10,standard,1,False,2,True
9876,12,Dynamic,AV,11,standard,1,False,2,True
9876,12,Dynamic,AV,12,standard,1,False,2,True
9876,12,Dynamic,AV,13,standard,1,False,2,True
9876,12,Dynamic,AV,14,deviant,2,True,0.3442,True
9876,12,Dynamic,AV,15,standard,1,False,2,True
9876,12,Dynamic,AV,16,standard,1,False,2,True
9876,12,Dynamic,AV,17,standard,1,False,2,True
9876,12,Dynamic,AV,18,standard,1,False,2,True
9876,12,Dynamic,AV,19,standard,1,False,2,True
9876,12,Dynamic,AV,20,standard,1,False,2,True
9876,12,Dynamic,AV,21,deviant,2,True,0.3238,True
9876,12,Dynamic,AV,22,standard,1,False,2,True
9876,12,Dynamic,AV,23,standard,1,False,2,True
9876,12,Dynamic,AV,24,standard,1,False,2,True
9876,12,Dynamic,AV,25,standard,1,False,2,True
9876,12,Dynamic,AV,26,standard,1,False,2,True
9876,12,Dynamic,AV,27,standard,1,False,2,True
9876,12,Dynamic,AV,28,standard,1,False,2,True
9876,12,Dynamic,AV,29,deviant,2,True,0.3909,True
9876,12,Dynamic,AV,30,standard,1,False,2,True
9876,12,Dynamic,AV,31,standard,1,False,2,True
9876,12,Dynamic,AV,32,standard,1,False,2,True
9876,12,Dynamic,AV,33,deviant,2,True,0.3331,True
9876,12,Dynamic,AV,34,standard,1,False,2,True
9876,12,Dynamic,AV,35,standard,1,False,2,True
9876,12,Dynamic,AV,36,standard,1,False,2,True
9876,12,Dynamic,AV,37,standard,1,False,2,True
9876,12,Dynamic,AV,38,deviant,2,True,0.3328,True
9876,12,Dynamic,AV,39,standard,1,False,2,True
9876,12,Dynamic,AV,40,standard,1,False,2,True
9876,12,Dynamic,AV,41,standard,1,False,2,True
9876,12,Dynamic,AV,42,standard,1,False,2,True
9876,12,Dynamic,AV,43,standard,1,False,2,True
9876,12,Dynamic,AV,44,deviant,2,True,0.3197,True
9876,12,Dynamic,AV,45,standard,1,False,2,True
9876,12,Dynamic,AV,46,standard,1,False,2,True
9876,12,Dynamic,AV,47,standard,1,False,2,True
9876,12,Dynamic,AV,48,standard,1,False,2,True
9876,12,Dynamic,AV,49,standard,1,False,2,True
9876,12,Dynamic,AV,50,standard,1,False,2,True
9876,12,Dynamic,AV,51,deviant,2,True,0.3818,True
9876,12,Dynamic,AV,52,standard,1,False,2,True
9876,12,Dynamic,AV,53,standard,1,False,2,True
9876,12,Dynamic,AV,54,standard,1,False,2,True
9876,12,Dynamic,AV,55,standard,1,False,2,True
9876,12,Dynamic,AV,56,standard,1,False,2,True
9876,12,Dynamic,AV,57,standard,1,False,2,True
9876,12,Dynamic,AV,58,standard,1,False,2,True
9876,12,Dynamic,AV,59,deviant,2,True,0.3732,True
9876,12,Dynamic,AV,60,standard,1,False,2,True
9876,13,Dynamic,AV,1,standard,1,False,2,True
9876,13,Dynamic,AV,2,standard,1,False,2,True
9876,13,Dynamic,AV,3,standard,1,False,2,True
9876,13,Dynamic,AV,4,deviant,2,True,0.4737,True
9876,13,Dynamic,AV,5,standard,1,False,2,True
9876,13,Dynamic,AV,6,standard,1,False,2,True
9876,13,Dynamic,AV,7,standard,1,False,2,True
9876,13,Dynamic,AV,8,standard,1,False,2,True
9876,13,Dynamic,AV,9,standard,1,False,2,True
9876,13,Dynamic,AV,10,standard,1,False,2,True
9876,13,Dynamic,AV,11,deviant,2,True,0.3675,True
9876,13,Dynamic,AV,12,standard,1,False,2,True
9876,13,Dynamic,AV,13,standard,1,False,2,True
9876,13,Dynamic,AV,14,standard,1,False,2,True
9876,13,Dynamic,AV,15,standard,1,False,2,True
9876,13,Dynamic,AV,16,standard,1,False,2,True
9876,13,Dynamic,AV,17,standard,1,False,2,True
9876,13,Dynamic,AV,18,standard,1,False,2,True
9876,13,Dynamic,AV,19,deviant,2,True,0.4563,True
9876,13,Dynamic,AV,20,standard,1,False,2,True
9876,13,Dynamic,AV,21,standard,1,False,2,True
9876,13,Dynamic,AV,22,standard,1,False,2,True
9876,13,Dynamic,AV,23,standard,1,False,2,True
9876,13,Dynamic,AV,24,standard,1,False,2,True
9876,13,Dynamic,AV,25,standard,1,False,2,True
9876,13,Dynamic,AV,26,standard,1,False,2,True
9876,13,Dynamic,AV,27,deviant,2,True,0.3281,True
9876,13,Dynamic,AV,28,standard,1,False,2,True
9876,13,Dynamic,AV,29,standard,1,False,2,True
9876,13,Dynamic,AV,30,standard,1,False,2,True
9876,13,Dynamic,AV,31,standard,1,False,2,True
9876,13,Dynamic,AV,32,standard,1,False,2,True
9876,13,Dynamic,AV,33,deviant,2,True,0.3029,True
9876,13,Dynamic,AV,34,standard,1,False,2,True
9876,13,Dynamic,AV,35,standard,1,False,2,True
9876,13,Dynamic,AV,36,standard,1,False,2,True
9876,13,Dynamic,AV,37,deviant,2,True,0.3944,True
9876,13,Dynamic,AV,38,standard,1,False,2,True
9876,13,Dynamic,AV,39,standard,1,False,2,True
9876,13,Dynamic,AV,40,standard,1,False,2,True
9876,13,Dynamic,AV,41,standard,1,False,2,True
9876,13,Dynamic,AV,42,standard,1,False,2,True
9876,13,Dynamic,AV,43,standard,1,False,2,True
9876,13,Dynamic,AV,44,deviant,2,True,0.3207,True
9876,13,Dynamic,AV,45,standard,1,False,2,True
9876,13,Dynamic,AV,46,standard,1,False,2,True
9876,13,Dynamic,AV,47,standard,1,False,2,True
9876,13,Dynamic,AV,48,standard,1,False,2,True
9876,13,Dynamic,AV,49,deviant,2,True,0.3719,True
9876,13,Dynamic,AV,50,standard,1,False,2,True
9876,13,Dynamic,AV,51,standard,1,False,2,True
9876,13,Dynamic,AV,52,standard,1,False,2,True
9876,13,Dynamic,AV,53,deviant,2,True,0.3474,True
9876,13,Dynamic,AV,54,standard,1,False,2,True
9876,13,Dynamic,AV,55,standard,1,False,2,True
9876,13,Dynamic,AV,56,standard,1,False,2,True
9876,13,Dynamic,AV,57,standard,1,False,2,True
9876,13,Dynamic,AV,58,standard,1,False,2,True
9876,13,Dynamic,AV,59,deviant,2,True,0.5228,True
9876,13,Dynamic,AV,60,standard,1,False,2,True
9876,14,Dynamic,AV,1,standard,1,False,2,True
9876,14,Dynamic,AV,2,standard,1,False,2,True
9876,14,Dynamic,AV,3,standard,1,False,2,True
9876,14,Dynamic,AV,4,standard,1,False,2,True
9876,14,Dynamic,AV,5,standard,1,False,2,True
9876,14,Dynamic,AV,6,standard,1,False,2,True
9876,14,Dynamic,AV,7,deviant,2,True,0.3394,True
9876,14,Dynamic,AV,8,standard,1,False,2,True
9876,14,Dynamic,AV,9,standard,1,False,2,True
9876,14,Dynamic,AV,10,standard,1,False,2,True
9876,14,Dynamic,AV,11,standard,1,False,2,True
9876,14,Dynamic,AV,12,standard,1,False,2,True
9876,14,Dynamic,AV,13,deviant,2,True,0.396,True
9876,14,Dynamic,AV,14,standard,1,False,2,True
9876,14,Dynamic,AV,15,standard,1,False,2,True
9876,14,Dynamic,AV,16,standard,1,False,2,True
9876,14,Dynamic,AV,17,standard,1,False,2,True
9876,14,Dynamic,AV,18,standard,1,False,2,True
9876,14,Dynamic,AV,19,deviant,2,True,0.4342,True
9876,14,Dynamic,AV,20,standard,1,False,2,True
9876,14,Dynamic,AV,21,standard,1,False,2,True
9876,14,Dynamic,AV,22,standard,1,False,2,True
9876,14,Dynamic,AV,23,standard,1,False,2,True
9876,14,Dynamic,AV,24,standard,1,False,2,True
9876,14,Dynamic,AV,25,deviant,2,True,0.3268,True
9876,14,Dynamic,AV,26,standard,1,False,2,True
9876,14,Dynamic,AV,27,standard,1,False,2,True
9876,14,Dynamic,AV,28,standard,1,False,2,True
9876,14,Dynamic,AV,29,deviant,2,True,0.3289,True
9876,14,Dynamic,AV,30,standard,1,False,2,True
9876,14,Dynamic,AV,31,standard,1,False,2,True
9876,14,Dynamic,AV,32,standard,1,False,2,True
9876,14,Dynamic,AV,33,standard,1,False,2,True
9876,14,Dynamic,AV,34,standard,1,False,2,True
9876,14,Dynamic,AV,35,standard,1,False,2,True
9876,14,Dynamic,AV,36,standard,1,False,2,True
9876,14,Dynamic,AV,37,deviant,2,True,0.3877,True
9876,14,Dynamic,AV,38,standard,1,False,2,True
9876,14,Dynamic,AV,39,standard,1,False,2,True
9876,14,Dynamic,AV,40,standard,1,False,2,True
9876,14,Dynamic,AV,41,standard,1,False,2,True
9876,14,Dynamic,AV,42,standard,1,False,2,True
9876,14,Dynamic,AV,43,standard,1,False,2,True
9876,14,Dynamic,AV,44,standard,1,False,2,True
9876,14,Dynamic,AV,45,deviant,2,True,0.3417,True
9876,14,Dynamic,AV,46,standard,1,False,2,True
9876,14,Dynamic,AV,47,standard,1,False,2,True
9876,14,Dynamic,AV,48,standard,1,False,2,True
9876,14,Dynamic,AV,49,standard,1,False,2,True
9876,14,Dynamic,AV,50,standard,1,False,2,True
9876,14,Dynamic,AV,51,standard,1,False,2,True
9876,14,Dynamic,AV,52,deviant,2,True,0.3719,True
9876,14,Dynamic,AV,53,standard,1,False,2,True
9876,14,Dynamic,AV,54,standard,1,False,2,True
9876,14,Dynamic,AV,55,standard,1,False,2,True
9876,14,Dynamic,AV,56,standard,1,False,2,True
9876,14,Dynamic,AV,57,standard,1,False,2,True
9876,14,Dynamic,AV,58,deviant,2,True,0.3677,True
9876,14,Dynamic,AV,59,standard,1,False,2,True
9876,14,Dynamic,AV,60,standard,1,False,2,True
9876,15,Static,SV,1,standard,1,False,2,True
9876,15,Static,SV,2,standard,1,False,2,True
9876,15,Static,SV,3,standard,1,False,2,True
9876,15,Static,SV,4,standard,1,False,2,True
9876,15,Static,SV,5,standard,1,False,2,True
9876,15,Static,SV,6,standard,1,False,2,True
9876,15,Static,SV,7,standard,1,False,2,True
9876,15,Static,SV,8,standard,1,False,2,True
9876,15,Static,SV,9,standard,1,False,2,True
9876,15,Static,SV,10,standard,1,False,2,True
9876,15,Static,SV,11,standard,1,False,2,True
9876,15,Static,SV,12,standard,1,False,2,True
9876,15,Static,SV,13,standard,1,False,2,True
9876,15,Static,SV,14,standard,1,False,2,True
9876,15,Static,SV,15,standard,1,False,2,True
9876,15,Static,SV,16,standard,1,False,2,True
9876,15,Static,SV,17,deviant,3,True,0.3703,True
9876,15,Static,SV,18,deviant,3,True,0.3638,True
9876,15,Static,SV,19,standard,1,False,2,True
9876,15,Static,SV,20,standard,1,False,2,True
9876,16,Static,SV,1,standard,1,False,2,True
9876,16,Static,SV,2,standard,1,False,2,True
9876,16,Static,SV,3,standard,1,False,2,True
9876,16,Static,SV,4,standard,1,False,2,True
9876,16,Static,SV,5,standard,1,False,2,True
9876,16,Static,SV,6,standard,1,False,2,True
9876,16,Static,SV,7,standard,1,False,2,True
9876,16,Static,SV,8,standard,1,False,2,True
9876,16,Static,SV,9,standard,1,False,2,True
9876,16,Static,SV,10,standard,1,False,2,True
9876,16,Static,SV,11,standard,1,False,2,True
9876,16,Static,SV,12,standard,1,False,2,True
9876,16,Static,SV,13,standard,1,False,2,True
9876,16,Static,SV,14,standard,1,False,2,True
9876,16,Static,SV,15,standard,1,False,2,True
9876,16,Static,SV,16,standard,1,False,2,True
9876,16,Static,SV,17,standard,1,False,2,True
9876,16,Static,SV,18,standard,1,False,2,True
9876,16,Static,SV,19,standard,1,False,2,True
9876,16,Static,SV,20,standard,1,False,2,True
9876,16,Static,SV,21,standard,1,False,2,True
9876,16,Static,SV,22,deviant,3,True,0.4301,True
9876,16,Static,SV,23,deviant,3,True,0.4753,True
9876,16,Static,SV,24,standard,1,False,2,True
9876,16,Static,SV,25,standard,1,False,2,True
9876,16,Static,SV,26,standard,1,False,2,True
9876,16,Static,SV,27,standard,1,False,2,True
9876,16,Static,SV,28,standard,1,False,2,True
9876,16,Static,SV,29,standard,1,False,2,True
9876,16,Static,SV,30,standard,1,False,2,True
9876,16,Static,SV,31,standard,1,False,2,True
9876,16,Static,SV,32,standard,1,False,2,True
9876,16,Static,SV,33,standard,1,False,2,True
9876,16,Static,SV,34,standard,1,False,2,True
9876,16,Static,SV,35,deviant,3,True,0.454,True
9876,16,Static,SV,36,standard,1,False,2,True
9876,16,Static,SV,37,standard,1,False,2,True
9876,16,Static,SV,38,standard,1,False,2,True
9876,16,Static,SV,39,standard,1,False,2,True
9876,16,Static,SV,40,standard,1,False,2,True
9876,16,Static,SV,41,standard,1,False,2,True
9876,16,Static,SV,42,standard,1,False,2,True
9876,16,Static,SV,43,standard,1,False,2,True
9876,16,Static,SV,44,deviant,3,True,0.4476,True
9876,16,Static,SV,45,standard,1,False,2,True
9876,16,Static,SV,46,standard,1,False,2,True
9876,16,Static,SV,47,standard,1,False,2,True
9876,16,Static,SV,48,standard,1,False,2,True
9876,16,Static,SV,49,standard,1,False,2,True
9876,16,Static,SV,50,standard,1,False,2,True
9876,16,Static,SV,51,standard,1,False,2,True
9876,16,Static,SV,52,standard,1,False,2,True
9876,16,Static,SV,53,standard,1,False,2,True
9876,16,Static,SV,54,standard,1,False,2,True
9876,16,Static,SV,55,standard,1,False,2,True
9876,16,Static,SV,56,standard,1,False,2,True
9876,16,Static,SV,57,standard,1,False,2,True
9876,16,Static,SV,58,standard,1,False,2,True
9876,16,Static,SV,59,standard,1,False,2,True
9876,16,Static,SV,60,standard,1,False,2,True
9876,17,Static,SV,1,standard,1,False,2,True
9876,17,Static,SV,2,standard,1,False,2,True
9876,17,Static,SV,3,standard,1,False,2,True
9876,17,Static,SV,4,standard,1,False,2,True
9876,17,Static,SV,5,standard,1,False,2,True
9876,17,Static,SV,6,standard,1,False,2,True
9876,17,Static,SV,7,standard,1,False,2,True
9876,17,Static,SV,8,standard,1,False,2,True
9876,17,Static,SV,9,standard,1,False,2,True
9876,17,Static,SV,10,standard,1,False,2,True
9876,17,Static,SV,11,standard,1,False,2,True
9876,17,Static,SV,12,standard,1,False,2,True
9876,17,Static,SV,13,standard,1,False,2,True
9876,17,Static,SV,14,standard,1,False,2,True
9876,17,Static,SV,15,standard,1,False,2,True
9876,17,Static,SV,16,deviant,3,True,0.3238,True
9876,17,Static,SV,17,standard,1,False,2,True
9876,17,Static,SV,18,standard,1,False,2,True
9876,17,Static,SV,19,deviant,3,True,0.4348,True
9876,17,Static,SV,20,standard,1,False,2,True
9876,17,Static,SV,21,standard,1,False,2,True
9876,17,Static,SV,22,standard,1,False,2,True
9876,17,Static,SV,23,standard,1,False,2,True
9876,17,Static,SV,24,standard,1,False,2,True
9876,17,Static,SV,25,standard,1,False,2,True
9876,17,Static,SV,26,standard,1,False,2,True
9876,17,Static,SV,27,standard,1,False,2,True
9876,17,Static,SV,28,standard,1,False,2,True
9876,17,Static,SV,29,standard,1,False,2,True
9876,17,Static,SV,30,standard,1,False,2,True
9876,17,Static,SV,31,standard,1,False,2,True
9876,17,Static,SV,32,standard,1,False,2,True
9876,17,Static,SV,33,standard,1,False,2,True
9876,17,Static,SV,34,standard,1,False,2,True
9876,17,Static,SV,35,standard,1,False,2,True
9876,17,Static,SV,36,standard,1,False,2,True
9876,17,Static,SV,37,standard,1,False,2,True
9876,17,Static,SV,38,standard,1,False,2,True
9876,17,Static,SV,39,deviant,3,True,0.4542,True
9876,17,Static,SV,40,standard,1,False,2,True
9876,17,Static,SV,41,deviant,3,True,0.4883,True
9876,17,Static,SV,42,standard,1,False,2,True
9876,17,Static,SV,43,standard,1,False,2,True
9876,17,Static,SV,44,standard,1,False,2,True
9876,17,Static,SV,45,standard,1,False,2,True
9876,17,Static,SV,46,standard,1,False,2,True
9876,17,Static,SV,47,deviant,3,True,0.3631,True
9876,17,Static,SV,48,standard,1,False,2,True
9876,17,Static,SV,49,standard,1,False,2,True
9876,17,Static,SV,50,deviant,3,True,0.5283,True
9876,17,Static,SV,51,standard,1,False,2,True
9876,17,Static,SV,52,standard,1,False,2,True
9876,17,Static,SV,53,standard,1,False,2,True
9876,17,Static,SV,54,standard,1,False,2,True
9876,17,Static,SV,55,standard,1,False,2,True
9876,17,Static,SV,56,standard,1,False,2,True
9876,17,Static,SV,57,deviant,3,True,0.4143,True
9876,17,Static,SV,58,standard,1,False,2,True
9876,17,Static,SV,59,standard,1,False,2,True
9876,17,Static,SV,60,standard,1,False,2,True
9876,18,Static,SV,1,standard,1,False,2,True
9876,18,Static,SV,2,standard,1,False,2,True
9876,18,Static,SV,3,standard,1,False,2,True
9876,18,Static,SV,4,deviant,3,True,0.3683,True
9876,18,Static,SV,5,deviant,3,True,0.4472,True
9876,18,Static,SV,6,standard,1,False,2,True
9876,18,Static,SV,7,standard,1,False,2,True
9876,18,Static,SV,8,standard,1,False,2,True
9876,18,Static,SV,9,standard,1,False,2,True
9876,18,Static,SV,10,standard,1,False,2,True
9876,18,Static,SV,11,standard,1,False,2,True
9876,18,Static,SV,12,deviant,3,True,0.4275,True
9876,18,Static,SV,13,standard,1,False,2,True
9876,18,Static,SV,14,standard,1,False,2,True
9876,18,Static,SV,15,standard,1,False,2,True
9876,18,Static,SV,16,standard,1,False,2,True
9876,18,Static,SV,17,deviant,3,True,0.3031,True
9876,18,Static,SV,18,deviant,3,True,0.4272,True
9876,18,Static,SV,19,standard,1,False,2,True
9876,18,Static,SV,20,standard,1,False,2,True
9876,18,Static,SV,21,deviant,3,True,0.2737,True
9876,18,Static,SV,22,standard,1,False,2,True
9876,18,Static,SV,23,standard,1,False,2,True
9876,18,Static,SV,24,standard,1,False,2,True
9876,18,Static,SV,25,deviant,3,True,0.3548,True
9876,18,Static,SV,26,standard,1,False,2,True
9876,18,Static,SV,27,standard,1,False,2,True
9876,18,Static,SV,28,standard,1,False,2,True
9876,18,Static,SV,29,standard,1,False,2,True
9876,18,Static,SV,30,standard,1,False,2,True
9876,18,Static,SV,31,standard,1,False,2,True
9876,18,Static,SV,32,standard,1,False,2,True
9876,18,Static,SV,33,standard,1,False,2,True
9876,18,Static,SV,34,standard,1,False,2,True
9876,18,Static,SV,35,standard,1,False,2,True
9876,18,Static,SV,36,standard,1,False,2,True
9876,18,Static,SV,37,standard,1,False,2,True
9876,18,Static,SV,38,standard,1,False,2,True
9876,18,Static,SV,39,standard,1,False,2,True
9876,18,Static,SV,40,standard,1,False,2,True
9876,18,Static,SV,41,standard,1,False,2,True
9876,18,Static,SV,42,standard,1,False,2,True
9876,18,Static,SV,43,standard,1,False,2,True
9876,18,Static,SV,44,standard,1,False,2,True
9876,18,Static,SV,45,standard,1,False,2,True
9876,18,Static,SV,46,standard,1,False,2,True
9876,18,Static,SV,47,standard,1,False,2,True
9876,18,Static,SV,48,standard,1,False,2,True
9876,18,Static,SV,49,standard,1,False,2,True
9876,18,Static,SV,50,deviant,3,True,0.3421,True
9876,18,Static,SV,51,standard,1,False,2,True
9876,18,Static,SV,52,standard,1,False,2,True
9876,18,Static,SV,53,standard,1,False,2,True
9876,18,Static,SV,54,standard,1,False,2,True
9876,18,Static,SV,55,standard,1,False,2,True
9876,18,Static,SV,56,deviant,3,True,0.4342,True
9876,18,Static,SV,57,standard,1,False,2,True
9876,18,Static,SV,58,standard,1,False,2,True
9876,18,Static,SV,59,standard,1,False,2,True
9876,18,Static,SV,60,standard,1,False,2,True
9876,19,Dynamic,SV,1,standard,1,False,2,True
9876,19,Dynamic,SV,2,standard,1,False,2,True
9876,19,Dynamic,SV,3,standard,1,False,2,True
9876,19,Dynamic,SV,4,deviant,3,True,0.492,True
9876,19,Dynamic,SV,5,standard,1,False,2,True
9876,19,Dynamic,SV,6,standard,1,False,2,True
9876,19,Dynamic,SV,7,standard,1,False,2,True
9876,19,Dynamic,SV,8,standard,1,False,2,True
9876,19,Dynamic,SV,9,standard,1,False,2,True
9876,19,Dynamic,SV,10,standard,1,False,2,True
9876,19,Dynamic,SV,11,standard,1,False,2,True
9876,19,Dynamic,SV,12,deviant,3,True,0.3189,True
9876,19,Dynamic,SV,13,standard,1,False,2,True
9876,19,Dynamic,SV,14,standard,1,False,2,True
9876,19,Dynamic,SV,15,standard,1,False,2,True
9876,19,Dynamic,SV,16,standard,1,False,2,True
9876,19,Dynamic,SV,17,standard,1,False,2,True
9876,19,Dynamic,SV,18,standard,1,False,2,True
9876,19,Dynamic,SV,19,deviant,3,True,0.4434,True
9876,19,Dynamic,SV,20,standard,1,False,2,True
9876,20,Dynamic,SV,1,standard,1,False,2,True
9876,20,Dynamic,SV,2,standard,1,False,2,True
9876,20,Dynamic,SV,3,standard,1,False,2,True
9876,20,Dynamic,SV,4,standard,1,False,2,True
9876,20,Dynamic,SV,5,standard,1,False,2,True
9876,20,Dynamic,SV,6,deviant,3,True,0.3694,True
9876,20,Dynamic,SV,7,standard,1,False,2,True
9876,20,Dynamic,SV,8,standard,1,False,2,True
9876,20,Dynamic,SV,9,standard,1,False,2,True
9876,20,Dynamic,SV,10,standard,1,False,2,True
9876,20,Dynamic,SV,11,standard,1,False,2,True
9876,20,Dynamic,SV,12,standard,1,False,2,True
9876,20,Dynamic,SV,13,deviant,3,True,0.4062,True
9876,20,Dynamic,SV,14,standard,1,False,2,True
9876,20,Dynamic,SV,15,standard,1,False,2,True
9876,20,Dynamic,SV,16,standard,1,False,2,True
9876,20,Dynamic,SV,17,standard,1,False,2,True
9876,20,Dynamic,SV,18,standard,1,False,2,True
9876,20,Dynamic,SV,19,standard,1,False,2,True
9876,20,Dynamic,SV,20,deviant,3,True,0.3379,True
9876,20,Dynamic,SV,21,standard,1,False,2,True
9876,20,Dynamic,SV,22,standard,1,False,2,True
9876,20,Dynamic,SV,23,standard,1,False,2,True
9876,20,Dynamic,SV,24,standard,1,False,2,True
9876,20,Dynamic,SV,25,standard,1,False,2,True
9876,20,Dynamic,SV,26,standard,1,False,2,True
9876,20,Dynamic,SV,27,deviant,3,True,0.3888,True
9876,20,Dynamic,SV,28,standard,1,False,2,True
9876,20,Dynamic,SV,29,standard,1,False,2,True
9876,20,Dynamic,SV,30,standard,1,False,2,True
9876,20,Dynamic,SV,31,standard,1,False,2,True
9876,20,Dynamic,SV,32,standard,1,False,2,True
9876,20,Dynamic,SV,33,standard,1,False,2,True
9876,20,Dynamic,SV,34,standard,1,False,2,True
9876,20,Dynamic,SV,35,deviant,3,True,0.4022,True
9876,20,Dynamic,SV,36,standard,1,False,2,True
9876,20,Dynamic,SV,37,standard,1,False,2,True
9876,20,Dynamic,SV,38,standard,1,False,2,True
9876,20,Dynamic,SV,39,deviant,3,True,0.3386,True
9876,20,Dynamic,SV,40,standard,1,False,2,True
9876,20,Dynamic,SV,41,standard,1,False,2,True
9876,20,Dynamic,SV,42,standard,1,False,2,True
9876,20,Dynamic,SV,43,standard,1,False,2,True
9876,20,Dynamic,SV,44,standard,1,False,2,True
9876,20,Dynamic,SV,45,deviant,3,True,0.3307,True
9876,20,Dynamic,SV,46,standard,1,False,2,True
9876,20,Dynamic,SV,47,standard,1,False,2,True
9876,20,Dynamic,SV,48,standard,1,False,2,True
9876,20,Dynamic,SV,49,standard,1,False,2,True
9876,20,Dynamic,SV,50,standard,1,False,2,True
9876,20,Dynamic,SV,51,deviant,3,True,0.3914,True
9876,20,Dynamic,SV,52,standard,1,False,2,True
9876,20,Dynamic,SV,53,standard,1,False,2,True
9876,20,Dynamic,SV,54,standard,1,False,2,True
9876,20,Dynamic,SV,55,standard,1,False,2,True
9876,20,Dynamic,SV,56,standard,1,False,2,True
9876,20,Dynamic,SV,57,deviant,3,True,0.4957,True
9876,20,Dynamic,SV,58,standard,1,False,2,True
9876,20,Dynamic,SV,59,standard,1,False,2,True
9876,20,Dynamic,SV,60,standard,1,False,2,True
9876,21,Dynamic,SV,1,standard,1,False,2,True
9876,21,Dynamic,SV,2,standard,1,False,2,True
9876,21,Dynamic,SV,3,standard,1,False,2,True
9876,21,Dynamic,SV,4,standard,1,False,2,True
9876,21,Dynamic,SV,5,standard,1,False,2,True
9876,21,Dynamic,SV,6,standard,1,False,2,True
9876,21,Dynamic,SV,7,standard,1,False,2,True
9876,21,Dynamic,SV,8,deviant,3,True,0.3882,True
9876,21,Dynamic,SV,9,standard,1,False,2,True
9876,21,Dynamic,SV,10,standard,1,False,2,True
9876,21,Dynamic,SV,11,standard,1,False,2,True
9876,21,Dynamic,SV,12,standard,1,False,2,True
9876,21,Dynamic,SV,13,standard,1,False,2,True
9876,21,Dynamic,SV,14,deviant,3,True,0.4375,True
9876,21,Dynamic,SV,15,standard,1,False,2,True
9876,21,Dynamic,SV,16,standard,1,False,2,True
9876,21,Dynamic,SV,17,standard,1,False,2,True
9876,21,Dynamic,SV,18,standard,1,False,2,True
9876,21,Dynamic,SV,19,standard,1,False,2,True
9876,21,Dynamic,SV,20,standard,1,False,2,True
9876,21,Dynamic,SV,21,deviant,3,True,0.3593,True
9876,21,Dynamic,SV,22,standard,1,False,2,True
9876,21,Dynamic,SV,23,standard,1,False,2,True
9876,21,Dynamic,SV,24,standard,1,False,2,True
9876,21,Dynamic,SV,25,standard,1,False,2,True
9876,21,Dynamic,SV,26,standard,1,False,2,True
9876,21,Dynamic,SV,27,standard,1,False,2,True
9876,21,Dynamic,SV,28,deviant,3,True,0.381,True
9876,21,Dynamic,SV,29,standard,1,False,2,True
9876,21,Dynamic,SV,30,standard,1,False,2,True
9876,21,Dynamic,SV,31,standard,1,False,2,True
9876,21,Dynamic,SV,32,standard,1,False,2,True
9876,21,Dynamic,SV,33,deviant,3,True,0.546,True
9876,21,Dynamic,SV,34,standard,1,False,2,True
9876,21,Dynamic,SV,35,standard,1,False,2,True
9876,21,Dynamic,SV,36,standard,1,False,2,True
9876,21,Dynamic,SV,37,standard,1,False,2,True
9876,21,Dynamic,SV,38,standard,1,False,2,True
9876,21,Dynamic,SV,39,deviant,3,True,0.4862,True
9876,21,Dynamic,SV,40,standard,1,False,2,True
9876,21,Dynamic,SV,41,standard,1,False,2,True
9876,21,Dynamic,SV,42,standard,1,False,2,True
9876,21,Dynamic,SV,43,standard,1,False,2,True
9876,21,Dynamic,SV,44,standard,1,False,2,True
9876,21,Dynamic,SV,45,standard,1,False,2,True
9876,21,Dynamic,SV,46,deviant,3,True,0.3629,True
9876,21,Dynamic,SV,47,standard,1,False,2,True
9876,21,Dynamic,SV,48,standard,1,False,2,True
9876,21,Dynamic,SV,49,standard,1,False,2,True
9876,21,Dynamic,SV,50,standard,1,False,2,True
9876,21,Dynamic,SV,51,standard,1,False,2,True
9876,21,Dynamic,SV,52,standard,1,False,2,True
9876,21,Dynamic,SV,53,deviant,3,True,0.2888,True
9876,21,Dynamic,SV,54,standard,1,False,2,True
9876,21,Dynamic,SV,55,standard,1,False,2,True
9876,21,Dynamic,SV,56,standard,1,False,2,True
9876,21,Dynamic,SV,57,standard,1,False,2,True
9876,21,Dynamic,SV,58,standard,1,True,0.3639,False
9876,21,Dynamic,SV,59,standard,1,False,2,True
9876,21,Dynamic,SV,60,deviant,3,True,0.3806,True
9876,22,Dynamic,SV,1,standard,1,False,2,True
9876,22,Dynamic,SV,2,standard,1,False,2,True
9876,22,Dynamic,SV,3,standard,1,False,2,True
9876,22,Dynamic,SV,4,standard,1,False,2,True
9876,22,Dynamic,SV,5,standard,1,False,2,True
9876,22,Dynamic,SV,6,standard,1,False,2,True
9876,22,Dynamic,SV,7,standard,1,False,2,True
9876,22,Dynamic,SV,8,deviant,3,True,0.4251,True
9876,22,Dynamic,SV,9,standard,1,False,2,True
9876,22,Dynamic,SV,10,standard,1,False,2,True
9876,22,Dynamic,SV,11,standard,1,False,2,True
9876,22,Dynamic,SV,12,standard,1,False,2,True
9876,22,Dynamic,SV,13,deviant,3,True,0.4673,True
9876,22,Dynamic,SV,14,standard,1,False,2,True
9876,22,Dynamic,SV,15,standard,1,False,2,True
9876,22,Dynamic,SV,16,standard,1,False,2,True
9876,22,Dynamic,SV,17,standard,1,False,2,True
9876,22,Dynamic,SV,18,standard,1,False,2,True
9876,22,Dynamic,SV,19,standard,1,False,2,True
9876,22,Dynamic,SV,20,standard,1,False,2,True
9876,22,Dynamic,SV,21,deviant,3,True,0.387,True
9876,22,Dynamic,SV,22,standard,1,False,2,True
9876,22,Dynamic,SV,23,standard,1,False,2,True
9876,22,Dynamic,SV,24,standard,1,False,2,True
9876,22,Dynamic,SV,25,standard,1,False,2,True
9876,22,Dynamic,SV,26,deviant,3,True,0.4152,True
9876,22,Dynamic,SV,27,standard,1,False,2,True
9876,22,Dynamic,SV,28,standard,1,False,2,True
9876,22,Dynamic,SV,29,standard,1,False,2,True
9876,22,Dynamic,SV,30,standard,1,False,2,True
9876,22,Dynamic,SV,31,standard,1,False,2,True
9876,22,Dynamic,SV,32,standard,1,False,2,True
9876,22,Dynamic,SV,33,deviant,3,True,0.2967,True
9876,22,Dynamic,SV,34,standard,1,False,2,True
9876,22,Dynamic,SV,35,standard,1,False,2,True
9876,22,Dynamic,SV,36,standard,1,False,2,True
9876,22,Dynamic,SV,37,standard,1,False,2,True
9876,22,Dynamic,SV,38,standard,1,False,2,True
9876,22,Dynamic,SV,39,standard,1,False,2,True
9876,22,Dynamic,SV,40,standard,1,False,2,True
9876,22,Dynamic,SV,41,deviant,3,True,0.4595,True
9876,22,Dynamic,SV,42,standard,1,False,2,True
9876,22,Dynamic,SV,43,standard,1,False,2,True
9876,22,Dynamic,SV,44,standard,1,False,2,True
9876,22,Dynamic,SV,45,standard,1,False,2,True
9876,22,Dynamic,SV,46,deviant,3,True,0.3533,True
9876,22,Dynamic,SV,47,standard,1,False,2,True
9876,22,Dynamic,SV,48,standard,1,False,2,True
9876,22,Dynamic,SV,49,standard,1,False,2,True
9876,22,Dynamic,SV,50,standard,1,False,2,True
9876,22,Dynamic,SV,51,deviant,3,True,0.6399,True
9876,22,Dynamic,SV,52,standard,1,False,2,True
9876,22,Dynamic,SV,53,standard,1,False,2,True
9876,22,Dynamic,SV,54,standard,1,False,2,True
9876,22,Dynamic,SV,55,standard,1,False,2,True
9876,22,Dynamic,SV,56,deviant,3,True,0.3804,True
9876,22,Dynamic,SV,57,standard,1,False,2,True
9876,22,Dynamic,SV,58,standard,1,False,2,True
9876,22,Dynamic,SV,59,standard,1,False,2,True
9876,22,Dynamic,SV,60,standard,1,False,2,True
9876,23,Static,AS,1,standard,1,False,2,True
9876,23,Static,AS,2,deviant,4,True,0.3959,True
9876,23,Static,AS,3,standard,1,False,2,True
9876,23,Static,AS,4,standard,1,False,2,True
9876,23,Static,AS,5,standard,1,False,2,True
9876,23,Static,AS,6,standard,1,False,2,True
9876,23,Static,AS,7,standard,1,False,2,True
9876,23,Static,AS,8,standard,1,False,2,True
9876,23,Static,AS,9,deviant,4,True,0.5271,True
9876,23,Static,AS,10,standard,1,False,2,True
9876,23,Static,AS,11,standard,1,False,2,True
9876,23,Static,AS,12,standard,1,False,2,True
9876,23,Static,AS,13,standard,1,False,2,True
9876,23,Static,AS,14,standard,1,False,2,True
9876,23,Static,AS,15,standard,1,False,2,True
9876,23,Static,AS,16,deviant,4,True,0.2798,True
9876,23,Static,AS,17,standard,1,False,2,True
9876,23,Static,AS,18,standard,1,False,2,True
9876,23,Static,AS,19,standard,1,False,2,True
9876,23,Static,AS,20,standard,1,False,2,True
9876,24,Static,AS,1,deviant,4,True,0.3802,True
9876,24,Static,AS,2,standard,1,False,2,True
9876,24,Static,AS,3,standard,1,False,2,True
9876,24,Static,AS,4,standard,1,False,2,True
9876,24,Static,AS,5,standard,1,False,2,True
9876,24,Static,AS,6,standard,1,False,2,True
9876,24,Static,AS,7,standard,1,False,2,True
9876,24,Static,AS,8,standard,1,False,2,True
9876,24,Static,AS,9,standard,1,False,2,True
9876,24,Static,AS,10,standard,1,False,2,True
9876,24,Static,AS,11,standard,1,False,2,True
9876,24,Static,AS,12,standard,1,False,2,True
9876,24,Static,AS,13,standard,1,False,2,True
9876,24,Static,AS,14,deviant,4,True,0.2941,True
9876,24,Static,AS,15,standard,1,False,2,True
9876,24,Static,AS,16,standard,1,False,2,True
9876,24,Static,AS,17,standard,1,False,2,True
9876,24,Static,AS,18,standard,1,False,2,True
9876,24,Static,AS,19,standard,1,False,2,True
9876,24,Static,AS,20,deviant,4,True,0.3494,True
9876,24,Static,AS,21,standard,1,False,2,True
9876,24,Static,AS,22,standard,1,False,2,True
9876,24,Static,AS,23,standard,1,False,2,True
9876,24,Static,AS,24,standard,1,False,2,True
9876,24,Static,AS,25,standard,1,False,2,True
9876,24,Static,AS,26,deviant,4,True,0.4563,True
9876,24,Static,AS,27,standard,1,False,2,True
9876,24,Static,AS,28,standard,1,False,2,True
9876,24,Static,AS,29,standard,1,False,2,True
9876,24,Static,AS,30,deviant,4,True,0.3649,True
9876,24,Static,AS,31,standard,1,False,2,True
9876,24,Static,AS,32,deviant,4,True,0.5239,True
9876,24,Static,AS,33,standard,1,False,2,True
9876,24,Static,AS,34,standard,1,False,2,True
9876,24,Static,AS,35,standard,1,False,2,True
9876,24,Static,AS,36,standard,1,False,2,True
9876,24,Static,AS,37,deviant,4,True,0.4312,True
9876,24,Static,AS,38,deviant,4,True,0.5518,True
9876,24,Static,AS,39,standard,1,False,2,True
9876,24,Static,AS,40,standard,1,False,2,True
9876,24,Static,AS,41,standard,1,False,2,True
9876,24,Static,AS,42,deviant,4,True,0.3105,True
9876,24,Static,AS,43,standard,1,False,2,True
9876,24,Static,AS,44,standard,1,False,2,True
9876,24,Static,AS,45,standard,1,False,2,True
9876,24,Static,AS,46,standard,1,False,2,True
9876,24,Static,AS,47,deviant,4,True,0.3689,True
9876,24,Static,AS,48,standard,1,False,2,True
9876,24,Static,AS,49,standard,1,False,2,True
9876,24,Static,AS,50,standard,1,False,2,True
9876,24,Static,AS,51,standard,1,False,2,True
9876,24,Static,AS,52,standard,1,False,2,True
9876,24,Static,AS,53,deviant,4,True,0.3282,True
9876,24,Static,AS,54,standard,1,False,2,True
9876,24,Static,AS,55,standard,1,False,2,True
9876,24,Static,AS,56,deviant,4,True,0.3984,True
9876,24,Static,AS,57,standard,1,False,2,True
9876,24,Static,AS,58,standard,1,False,2,True
9876,24,Static,AS,59,deviant,4,True,0.3525,True
9876,24,Static,AS,60,standard,1,False,2,True
9876,25,Static,AS,1,standard,1,False,2,True
9876,25,Static,AS,2,standard,1,False,2,True
9876,25,Static,AS,3,standard,1,False,2,True
9876,25,Static,AS,4,standard,1,False,2,True
9876,25,Static,AS,5,standard,1,False,2,True
9876,25,Static,AS,6,standard,1,False,2,True
9876,25,Static,AS,7,standard,1,False,2,True
9876,25,Static,AS,8,standard,1,False,2,True
9876,25,Static,AS,9,standard,1,False,2,True
9876,25,Static,AS,10,deviant,4,True,0.3385,True
9876,25,Static,AS,11,standard,1,False,2,True
9876,25,Static,AS,12,standard,1,False,2,True
9876,25,Static,AS,13,standard,1,False,2,True
9876,25,Static,AS,14,standard,1,False,2,True
9876,25,Static,AS,15,standard,1,False,2,True
9876,25,Static,AS,16,standard,1,False,2,True
9876,25,Static,AS,17,standard,1,False,2,True
9876,25,Static,AS,18,standard,1,False,2,True
9876,25,Static,AS,19,standard,1,False,2,True
9876,25,Static,AS,20,standard,1,False,2,True
9876,25,Static,AS,21,standard,1,False,2,True
9876,25,Static,AS,22,standard,1,False,2,True
9876,25,Static,AS,23,standard,1,False,2,True
9876,25,Static,AS,24,standard,1,False,2,True
9876,25,Static,AS,25,standard,1,False,2,True
9876,25,Static,AS,26,standard,1,False,2,True
9876,25,Static,AS,27,standard,1,False,2,True
9876,25,Static,AS,28,standard,1,False,2,True
9876,25,Static,AS,29,standard,1,False,2,True
9876,25,Static,AS,30,standard,1,False,2,True
9876,25,Static,AS,31,standard,1,False,2,True
9876,25,Static,AS,32,standard,1,False,2,True
9876,25,Static,AS,33,standard,1,False,2,True
9876,25,Static,AS,34,standard,1,False,2,True
9876,25,Static,AS,35,standard,1,False,2,True
9876,25,Static,AS,36,standard,1,False,2,True
9876,25,Static,AS,37,deviant,4,True,0.3687,True
9876,25,Static,AS,38,standard,1,False,2,True
9876,25,Static,AS,39,standard,1,False,2,True
9876,25,Static,AS,40,standard,1,False,2,True
9876,25,Static,AS,41,standard,1,False,2,True
9876,25,Static,AS,42,standard,1,False,2,True
9876,25,Static,AS,43,standard,1,False,2,True
9876,25,Static,AS,44,deviant,4,True,0.5994,True
9876,25,Static,AS,45,standard,1,False,2,True
9876,25,Static,AS,46,standard,1,False,2,True
9876,25,Static,AS,47,standard,1,False,2,True
9876,25,Static,AS,48,standard,1,False,2,True
9876,25,Static,AS,49,standard,1,False,2,True
9876,25,Static,AS,50,deviant,4,True,0.3164,True
9876,25,Static,AS,51,deviant,4,True,0.5167,True
9876,25,Static,AS,52,standard,1,False,2,True
9876,25,Static,AS,53,standard,1,False,2,True
9876,25,Static,AS,54,standard,1,False,2,True
9876,25,Static,AS,55,standard,1,False,2,True
9876,25,Static,AS,56,deviant,4,True,0.329,True
9876,25,Static,AS,57,deviant,4,True,0.3672,True
9876,25,Static,AS,58,deviant,4,True,0.3087,True
9876,25,Static,AS,59,standard,1,False,2,True
9876,25,Static,AS,60,deviant,4,True,0.3394,True
9876,26,Static,AS,1,standard,1,True,0.6198,False
9876,26,Static,AS,2,standard,1,False,2,True
9876,26,Static,AS,3,standard,1,False,2,True
9876,26,Static,AS,4,standard,1,False,2,True
9876,26,Static,AS,5,standard,1,False,2,True
9876,26,Static,AS,6,standard,1,False,2,True
9876,26,Static,AS,7,standard,1,False,2,True
9876,26,Static,AS,8,standard,1,False,2,True
9876,26,Static,AS,9,standard,1,False,2,True
9876,26,Static,AS,10,standard,1,False,2,True
9876,26,Static,AS,11,standard,1,False,2,True
9876,26,Static,AS,12,deviant,4,True,0.4844,True
9876,26,Static,AS,13,standard,1,False,2,True
9876,26,Static,AS,14,standard,1,False,2,True
9876,26,Static,AS,15,deviant,4,True,0.3566,True
9876,26,Static,AS,16,standard,1,False,2,True
9876,26,Static,AS,17,standard,1,False,2,True
9876,26,Static,AS,18,standard,1,False,2,True
9876,26,Static,AS,19,standard,1,False,2,True
9876,26,Static,AS,20,deviant,4,True,0.3738,True
9876,26,Static,AS,21,standard,1,False,2,True
9876,26,Static,AS,22,standard,1,False,2,True
9876,26,Static,AS,23,standard,1,False,2,True
9876,26,Static,AS,24,standard,1,False,2,True
9876,26,Static,AS,25,standard,1,False,2,True
9876,26,Static,AS,26,standard,1,False,2,True
9876,26,Static,AS,27,standard,1,False,2,True
9876,26,Static,AS,28,standard,1,False,2,True
9876,26,Static,AS,29,standard,1,False,2,True
9876,26,Static,AS,30,standard,1,False,2,True
9876,26,Static,AS,31,standard,1,False,2,True
9876,26,Static,AS,32,standard,1,False,2,True
9876,26,Static,AS,33,standard,1,False,2,True
9876,26,Static,AS,34,deviant,4,True,0.4153,True
9876,26,Static,AS,35,standard,1,False,2,True
9876,26,Static,AS,36,standard,1,False,2,True
9876,26,Static,AS,37,standard,1,False,2,True
9876,26,Static,AS,38,standard,1,False,2,True
9876,26,Static,AS,39,standard,1,False,2,True
9876,26,Static,AS,40,deviant,4,True,0.4147,True
9876,26,Static,AS,41,standard,1,False,2,True
9876,26,Static,AS,42,standard,1,False,2,True
9876,26,Static,AS,43,standard,1,False,2,True
9876,26,Static,AS,44,standard,1,False,2,True
9876,26,Static,AS,45,standard,1,False,2,True
9876,26,Static,AS,46,standard,1,False,2,True
9876,26,Static,AS,47,standard,1,False,2,True
9876,26,Static,AS,48,standard,1,False,2,True
9876,26,Static,AS,49,standard,1,False,2,True
9876,26,Static,AS,50,standard,1,False,2,True
9876,26,Static,AS,51,deviant,4,True,0.4379,True
9876,26,Static,AS,52,deviant,4,True,0.5028,True
9876,26,Static,AS,53,deviant,4,True,0.3684,True
9876,26,Static,AS,54,standard,1,False,2,True
9876,26,Static,AS,55,standard,1,False,2,True
9876,26,Static,AS,56,standard,1,False,2,True
9876,26,Static,AS,57,standard,1,False,2,True
9876,26,Static,AS,58,deviant,4,True,0.2938,True
9876,26,Static,AS,59,standard,1,False,2,True
9876,26,Static,AS,60,standard,1,False,2,True
9876,27,Dynamic,AS,1,standard,1,False,2,True
9876,27,Dynamic,AS,2,standard,1,False,2,True
9876,27,Dynamic,AS,3,standard,1,False,2,True
9876,27,Dynamic,AS,4,standard,1,False,2,True
9876,27,Dynamic,AS,5,standard,1,False,2,True
9876,27,Dynamic,AS,6,standard,1,False,2,True
9876,27,Dynamic,AS,7,standard,1,False,2,True
9876,27,Dynamic,AS,8,deviant,4,True,0.4136,True
9876,27,Dynamic,AS,9,standard,1,False,2,True
9876,27,Dynamic,AS,10,standard,1,False,2,True
9876,27,Dynamic,AS,11,standard,1,False,2,True
9876,27,Dynamic,AS,12,standard,1,False,2,True
9876,27,Dynamic,AS,13,standard,1,False,2,True
9876,27,Dynamic,AS,14,standard,1,False,2,True
9876,27,Dynamic,AS,15,standard,1,False,2,True
9876,27,Dynamic,AS,16,deviant,4,True,0.406,True
9876,27,Dynamic,AS,17,standard,1,False,2,True
9876,27,Dynamic,AS,18,standard,1,False,2,True
9876,27,Dynamic,AS,19,standard,1,False,2,True
9876,27,Dynamic,AS,20,standard,1,False,2,True
9876,28,Dynamic,AS,1,standard,1,False,2,True
9876,28,Dynamic,AS,2,standard,1,False,2,True
9876,28,Dynamic,AS,3,standard,1,False,2,True
9876,28,Dynamic,AS,4,standard,1,False,2,True
9876,28,Dynamic,AS,5,standard,1,False,2,True
9876,28,Dynamic,AS,6,standard,1,False,2,True
9876,28,Dynamic,AS,7,deviant,4,True,0.3903,True
9876,28,Dynamic,AS,8,standard,1,False,2,True
9876,28,Dynamic,AS,9,standard,1,False,2,True
9876,28,Dynamic,AS,10,standard,1,False,2,True
9876,28,Dynamic,AS,11,standard,1,False,2,True
9876,28,Dynamic,AS,12,standard,1,False,2,True
9876,28,Dynamic,AS,13,standard,1,False,2,True
9876,28,Dynamic,AS,14,deviant,4,True,0.4041,True
9876,28,Dynamic,AS,15,standard,1,False,2,True
9876,28,Dynamic,AS,16,standard,1,False,2,True
9876,28,Dynamic,AS,17,standard,1,False,2,True
9876,28,Dynamic,AS,18,standard,1,False,2,True
9876,28,Dynamic,AS,19,standard,1,False,2,True
9876,28,Dynamic,AS,20,standard,1,False,2,True
9876,28,Dynamic,AS,21,standard,1,False,2,True
9876,28,Dynamic,AS,22,deviant,4,True,0.3781,True
9876,28,Dynamic,AS,23,standard,1,False,2,True
9876,28,Dynamic,AS,24,standard,1,False,2,True
9876,28,Dynamic,AS,25,standard,1,False,2,True
9876,28,Dynamic,AS,26,standard,1,False,2,True
9876,28,Dynamic,AS,27,standard,1,False,2,True
9876,28,Dynamic,AS,28,deviant,4,True,0.3582,True
9876,28,Dynamic,AS,29,standard,1,False,2,True
9876,28,Dynamic,AS,30,standard,1,False,2,True
9876,28,Dynamic,AS,31,standard,1,False,2,True
9876,28,Dynamic,AS,32,standard,1,False,2,True
9876,28,Dynamic,AS,33,standard,1,False,2,True
9876,28,Dynamic,AS,34,deviant,4,True,0.4091,True
9876,28,Dynamic,AS,35,standard,1,False,2,True
9876,28,Dynamic,AS,36,standard,1,False,2,True
9876,28,Dynamic,AS,37,standard,1,False,2,True
9876,28,Dynamic,AS,38,standard,1,False,2,True
9876,28,Dynamic,AS,39,deviant,4,True,0.3135,True
9876,28,Dynamic,AS,40,standard,1,False,2,True
9876,28,Dynamic,AS,41,standard,1,False,2,True
9876,28,Dynamic,AS,42,standard,1,False,2,True
9876,28,Dynamic,AS,43,deviant,4,True,0.3805,True
9876,28,Dynamic,AS,44,standard,1,False,2,True
9876,28,Dynamic,AS,45,standard,1,False,2,True
9876,28,Dynamic,AS,46,standard,1,False,2,True
9876,28,Dynamic,AS,47,standard,1,False,2,True
9876,28,Dynamic,AS,48,standard,1,False,2,True
9876,28,Dynamic,AS,49,standard,1,False,2,True
9876,28,Dynamic,AS,50,deviant,4,True,0.2973,True
9876,28,Dynamic,AS,51,standard,1,False,2,True
9876,28,Dynamic,AS,52,standard,1,False,2,True
9876,28,Dynamic,AS,53,standard,1,False,2,True
9876,28,Dynamic,AS,54,standard,1,False,2,True
9876,28,Dynamic,AS,55,standard,1,False,2,True
9876,28,Dynamic,AS,56,deviant,4,True,0.4645,True
9876,28,Dynamic,AS,57,standard,1,False,2,True
9876,28,Dynamic,AS,58,standard,1,False,2,True
9876,28,Dynamic,AS,59,standard,1,False,2,True
9876,28,Dynamic,AS,60,standard,1,False,2,True
9876,29,Dynamic,AS,1,standard,1,False,2,True
9876,29,Dynamic,AS,2,standard,1,False,2,True
9876,29,Dynamic,AS,3,standard,1,False,2,True
9876,29,Dynamic,AS,4,deviant,4,True,0.4537,True
9876,29,Dynamic,AS,5,standard,1,False,2,True
9876,29,Dynamic,AS,6,standard,1,False,2,True
9876,29,Dynamic,AS,7,standard,1,False,2,True
9876,29,Dynamic,AS,8,standard,1,False,2,True
9876,29,Dynamic,AS,9,standard,1,False,2,True
9876,29,Dynamic,AS,10,deviant,4,True,0.337,True
9876,29,Dynamic,AS,11,standard,1,False,2,True
9876,29,Dynamic,AS,12,standard,1,False,2,True
9876,29,Dynamic,AS,13,standard,1,False,2,True
9876,29,Dynamic,AS,14,deviant,4,True,0.3889,True
9876,29,Dynamic,AS,15,standard,1,False,2,True
9876,29,Dynamic,AS,16,standard,1,False,2,True
9876,29,Dynamic,AS,17,standard,1,False,2,True
9876,29,Dynamic,AS,18,standard,1,False,2,True
9876,29,Dynamic,AS,19,standard,1,False,2,True
9876,29,Dynamic,AS,20,deviant,4,True,0.3993,True
9876,29,Dynamic,AS,21,standard,1,False,2,True
9876,29,Dynamic,AS,22,standard,1,False,2,True
9876,29,Dynamic,AS,23,standard,1,False,2,True
9876,29,Dynamic,AS,24,standard,1,False,2,True
9876,29,Dynamic,AS,25,standard,1,False,2,True
9876,29,Dynamic,AS,26,deviant,4,True,0.4301,True
9876,29,Dynamic,AS,27,standard,1,False,2,True
9876,29,Dynamic,AS,28,standard,1,False,2,True
9876,29,Dynamic,AS,29,standard,1,False,2,True
9876,29,Dynamic,AS,30,standard,1,False,2,True
9876,29,Dynamic,AS,31,standard,1,False,2,True
9876,29,Dynamic,AS,32,standard,1,False,2,True
9876,29,Dynamic,AS,33,standard,1,False,2,True
9876,29,Dynamic,AS,34,deviant,4,True,0.3567,True
9876,29,Dynamic,AS,35,standard,1,False,2,True
9876,29,Dynamic,AS,36,standard,1,False,2,True
9876,29,Dynamic,AS,37,standard,1,False,2,True
9876,29,Dynamic,AS,38,standard,1,False,2,True
9876,29,Dynamic,AS,39,standard,1,False,2,True
9876,29,Dynamic,AS,40,standard,1,False,2,True
9876,29,Dynamic,AS,41,standard,1,False,2,True
9876,29,Dynamic,AS,42,deviant,4,True,0.3644,True
9876,29,Dynamic,AS,43,standard,1,False,2,True
9876,29,Dynamic,AS,44,standard,1,False,2,True
9876,29,Dynamic,AS,45,standard,1,False,2,True
9876,29,Dynamic,AS,46,standard,1,False,2,True
9876,29,Dynamic,AS,47,standard,1,False,2,True
9876,29,Dynamic,AS,48,standard,1,False,2,True
9876,29,Dynamic,AS,49,standard,1,False,2,True
9876,29,Dynamic,AS,50,deviant,4,True,0.4743,True
9876,29,Dynamic,AS,51,standard,1,False,2,True
9876,29,Dynamic,AS,52,standard,1,False,2,True
9876,29,Dynamic,AS,53,standard,1,False,2,True
9876,29,Dynamic,AS,54,deviant,4,True,0.4496,True
9876,29,Dynamic,AS,55,standard,1,False,2,True
9876,29,Dynamic,AS,56,standard,1,False,2,True
9876,29,Dynamic,AS,57,standard,1,False,2,True
9876,29,Dynamic,AS,58,standard,1,False,2,True
9876,29,Dynamic,AS,59,standard,1,False,2,True
9876,29,Dynamic,AS,60,deviant,4,True,0.3326,True
9876,30,Dynamic,AS,1,standard,1,False,2,True
9876,30,Dynamic,AS,2,standard,1,False,2,True
9876,30,Dynamic,AS,3,standard,1,False,2,True
9876,30,Dynamic,AS,4,standard,1,False,2,True
9876,30,Dynamic,AS,5,standard,1,False,2,True
9876,30,Dynamic,AS,6,standard,1,False,2,True
9876,30,Dynamic,AS,7,deviant,4,True,0.4096,True
9876,30,Dynamic,AS,8,standard,1,False,2,True
9876,30,Dynamic,AS,9,standard,1,False,2,True
9876,30,Dynamic,AS,10,standard,1,False,2,True
9876,30,Dynamic,AS,11,standard,1,False,2,True
9876,30,Dynamic,AS,12,standard,1,False,2,True
9876,30,Dynamic,AS,13,standard,1,False,2,True
9876,30,Dynamic,AS,14,deviant,4,True,0.5413,True
9876,30,Dynamic,AS,15,standard,1,False,2,True
9876,30,Dynamic,AS,16,standard,1,False,2,True
9876,30,Dynamic,AS,17,standard,1,False,2,True
9876,30,Dynamic,AS,18,standard,1,False,2,True
9876,30,Dynamic,AS,19,standard,1,False,2,True
9876,30,Dynamic,AS,20,standard,1,False,2,True
9876,30,Dynamic,AS,21,standard,1,False,2,True
9876,30,Dynamic,AS,22,deviant,4,True,0.3225,True
9876,30,Dynamic,AS,23,standard,1,False,2,True
9876,30,Dynamic,AS,24,standard,1,False,2,True
9876,30,Dynamic,AS,25,standard,1,False,2,True
9876,30,Dynamic,AS,26,standard,1,False,2,True
9876,30,Dynamic,AS,27,standard,1,False,2,True
9876,30,Dynamic,AS,28,standard,1,False,2,True
9876,30,Dynamic,AS,29,deviant,4,True,0.3125,True
9876,30,Dynamic,AS,30,standard,1,False,2,True
9876,30,Dynamic,AS,31,standard,1,False,2,True
9876,30,Dynamic,AS,32,standard,1,False,2,True
9876,30,Dynamic,AS,33,standard,1,False,2,True
9876,30,Dynamic,AS,34,deviant,4,True,0.3758,True
9876,30,Dynamic,AS,35,standard,1,False,2,True
9876,30,Dynamic,AS,36,standard,1,False,2,True
9876,30,Dynamic,AS,37,standard,1,False,2,True
9876,30,Dynamic,AS,38,standard,1,False,2,True
9876,30,Dynamic,AS,39,standard,1,False,2,True
9876,30,Dynamic,AS,40,deviant,4,True,0.29,True
9876,30,Dynamic,AS,41,standard,1,False,2,True
9876,30,Dynamic,AS,42,standard,1,True,0.4774,False
9876,30,Dynamic,AS,43,standard,1,False,2,True
9876,30,Dynamic,AS,44,standard,1,False,2,True
9876,30,Dynamic,AS,45,standard,1,False,2,True
9876,30,Dynamic,AS,46,deviant,4,True,0.4372,True
9876,30,Dynamic,AS,47,standard,1,False,2,True
9876,30,Dynamic,AS,48,standard,1,False,2,True
9876,30,Dynamic,AS,49,standard,1,False,2,True
9876,30,Dynamic,AS,50,standard,1,False,2,True
9876,30,Dynamic,AS,51,standard,1,False,2,True
9876,30,Dynamic,AS,52,standard,1,False,2,True
9876,30,Dynamic,AS,53,deviant,4,True,0.3738,True
9876,30,Dynamic,AS,54,standard,1,False,2,True
9876,30,Dynamic,AS,55,standard,1,False,2,True
9876,30,Dynamic,AS,56,standard,1,False,2,True
9876,30,Dynamic,AS,57,standard,1,False,2,True
9876,30,Dynamic,AS,58,standard,1,False,2,True
9876,30,Dynamic,AS,59,deviant,4,True,0.4111,True
9876,30,Dynamic,AS,60,standard,1,False,2,True
